LabVIEW Measurement,
Writer_Version,2
Reader_Version,2
Separator,Comma
Decimal_Separator,.
Multi_Headings,Yes
X_Columns,One
Time_Pref,Absolute
Operator,syed
Date,2019/02/21
Time,11:57:49.636746699999669971
***End_of_Header***,
,
Channels,2,,
Samples,2000,2000,
Date,2019/02/21,2019/02/21,
Time,11:57:49.636746699999669971,11:57:49.636746699999669971,
Y_Unit_Label,Volts,Volts,
X_Dimension,Time,Time,
X0,0.0000000000000000E+0,0.0000000000000000E+0,
Delta_X,3.300000E-7,3.300000E-7,
***End_of_Header***,,,
X_Value,Input bar signal,Output bar signal,Comment
0.000000,-0.002983,-0.004517
3.300000E-7,-0.002983,-0.003485
6.600000E-7,-0.003609,-0.003204
9.900000E-7,-0.003296,-0.003235
1.320000E-6,-0.002983,-0.003923
1.650000E-6,-0.003296,-0.004798
1.980000E-6,-0.002983,-0.005330
2.310000E-6,-0.003609,-0.005611
2.640000E-6,-0.002983,-0.005549
2.970000E-6,-0.002671,-0.005267
3.300000E-6,-0.002983,-0.004423
3.630000E-6,-0.002671,-0.004048
3.960000E-6,-0.003609,-0.004298
4.290000E-6,-0.003609,-0.004736
4.620000E-6,-0.003609,-0.004955
4.950000E-6,-0.004234,-0.004673
5.280000E-6,-0.003296,-0.004267
5.610000E-6,-0.002983,-0.003923
5.940000E-6,-0.002983,-0.003392
6.270000E-6,-0.002046,-0.003204
6.600000E-6,-0.002358,-0.003392
6.930000E-6,-0.002358,-0.003829
7.260000E-6,-0.002671,-0.004423
7.590000E-6,-0.002983,-0.004861
7.920000E-6,-0.002983,-0.004830
8.250000E-6,-0.003296,-0.004423
8.580000E-6,-0.003609,-0.004048
8.910000E-6,-0.003296,-0.004173
9.240000E-6,-0.002983,-0.003954
9.570000E-6,-0.003609,-0.003986
9.900000E-6,-0.003296,-0.003954
1.023000E-5,-0.003609,-0.003861
1.056000E-5,-0.002983,-0.004236
1.089000E-5,-0.003296,-0.004705
1.122000E-5,-0.003609,-0.005048
1.155000E-5,-0.002983,-0.004861
1.188000E-5,-0.003296,-0.004580
1.221000E-5,-0.003609,-0.004455
1.254000E-5,-0.003921,-0.004486
1.287000E-5,-0.003921,-0.004486
1.320000E-5,-0.003609,-0.004486
1.353000E-5,-0.003296,-0.004830
1.386000E-5,-0.003609,-0.004767
1.419000E-5,-0.003296,-0.004861
1.452000E-5,-0.003296,-0.004923
1.485000E-5,-0.003296,-0.004673
1.518000E-5,-0.003609,-0.004548
1.551000E-5,-0.003609,-0.004423
1.584000E-5,-0.003609,-0.004423
1.617000E-5,-0.004234,-0.004486
1.650000E-5,-0.003609,-0.004517
1.683000E-5,-0.002983,-0.004705
1.716000E-5,-0.002983,-0.004204
1.749000E-5,-0.002671,-0.004329
1.782000E-5,-0.002671,-0.004173
1.815000E-5,-0.003609,-0.004111
1.848000E-5,-0.002983,-0.004517
1.881000E-5,-0.002983,-0.004705
1.914000E-5,-0.002671,-0.003986
1.947000E-5,-0.002358,-0.004017
1.980000E-5,-0.002983,-0.004611
2.013000E-5,-0.002358,-0.005048
2.046000E-5,-0.002358,-0.005080
2.079000E-5,-0.002983,-0.004705
2.112000E-5,-0.002983,-0.004017
2.145000E-5,-0.003296,-0.003673
2.178000E-5,-0.003609,-0.003829
2.211000E-5,-0.002983,-0.004173
2.244000E-5,-0.002671,-0.004455
2.277000E-5,-0.002671,-0.004548
2.310000E-5,-0.002671,-0.004455
2.343000E-5,-0.003296,-0.004455
2.376000E-5,-0.002671,-0.004236
2.409000E-5,-0.003296,-0.003704
2.442000E-5,-0.002983,-0.003204
2.475000E-5,-0.003296,-0.003360
2.508000E-5,-0.003921,-0.003892
2.541000E-5,-0.003296,-0.004642
2.574000E-5,-0.002671,-0.005017
2.607000E-5,-0.002983,-0.004798
2.640000E-5,-0.002671,-0.004361
2.673000E-5,-0.003296,-0.004079
2.706000E-5,-0.003296,-0.003392
2.739000E-5,-0.002671,-0.003204
2.772000E-5,-0.002983,-0.003454
2.805000E-5,-0.002983,-0.004423
2.838000E-5,-0.002358,-0.004298
2.871000E-5,-0.002358,-0.003329
2.904000E-5,-0.002671,-0.002798
2.937000E-5,-0.004234,-0.005080
2.970000E-5,-0.003921,-0.006330
3.003000E-5,-0.002358,-0.005424
3.036000E-5,-0.002046,-0.004079
3.069000E-5,-0.002983,-0.004079
3.102000E-5,-0.004234,-0.004361
3.135000E-5,-0.004234,-0.004392
3.168000E-5,-0.003609,-0.004423
3.201000E-5,-0.003921,-0.004204
3.234000E-5,-0.003296,-0.003454
3.267000E-5,-0.003609,-0.003204
3.300000E-5,-0.004234,-0.003517
3.333000E-5,-0.002983,-0.004204
3.366000E-5,-0.003609,-0.004767
3.399000E-5,-0.003609,-0.004673
3.432000E-5,-0.003609,-0.004861
3.465000E-5,-0.003921,-0.005142
3.498000E-5,-0.003921,-0.005017
3.531000E-5,-0.004234,-0.004923
3.564000E-5,-0.004234,-0.004548
3.597000E-5,-0.003296,-0.004079
3.630000E-5,-0.003296,-0.003861
3.663000E-5,-0.003609,-0.004079
3.696000E-5,-0.002983,-0.004486
3.729000E-5,-0.003296,-0.004580
3.762000E-5,-0.003296,-0.004361
3.795000E-5,-0.003296,-0.004079
3.828000E-5,-0.003296,-0.003892
3.861000E-5,-0.002983,-0.003829
3.894000E-5,-0.003296,-0.004392
3.927000E-5,-0.002983,-0.004580
3.960000E-5,-0.002983,-0.004673
3.993000E-5,-0.003609,-0.004392
4.026000E-5,-0.002983,-0.004048
4.059000E-5,-0.002983,-0.003829
4.092000E-5,-0.003296,-0.003892
4.125000E-5,-0.002671,-0.003798
4.158000E-5,-0.002671,-0.004111
4.191000E-5,-0.003296,-0.004267
4.224000E-5,-0.003609,-0.004423
4.257000E-5,-0.004234,-0.004267
4.290000E-5,-0.003921,-0.004173
4.323000E-5,-0.003609,-0.004079
4.356000E-5,-0.003921,-0.004079
4.389000E-5,-0.003921,-0.003892
4.422000E-5,-0.004234,-0.003485
4.455000E-5,-0.004234,-0.003329
4.488000E-5,-0.003921,-0.003329
4.521000E-5,-0.003609,-0.003829
4.554000E-5,-0.002983,-0.004705
4.587000E-5,-0.002358,-0.004642
4.620000E-5,-0.002358,-0.005111
4.653000E-5,-0.002046,-0.004892
4.686000E-5,-0.002671,-0.004142
4.719000E-5,-0.002983,-0.003673
4.752000E-5,-0.004234,-0.004923
4.785000E-5,-0.004234,-0.005424
4.818000E-5,-0.003609,-0.005017
4.851000E-5,-0.003609,-0.004392
4.884000E-5,-0.003296,-0.004642
4.917000E-5,-0.002671,-0.004423
4.950000E-5,-0.003296,-0.004548
4.983000E-5,-0.003609,-0.004767
5.016000E-5,-0.003921,-0.004611
5.049000E-5,-0.004234,-0.004204
5.082000E-5,-0.003921,-0.004298
5.115000E-5,-0.004546,-0.004923
5.148000E-5,-0.004546,-0.005111
5.181000E-5,-0.003609,-0.004673
5.214000E-5,-0.003921,-0.004236
5.247000E-5,-0.003609,-0.004079
5.280000E-5,-0.003296,-0.004017
5.313000E-5,-0.003921,-0.004548
5.346000E-5,-0.003609,-0.004861
5.379000E-5,-0.003921,-0.004611
5.412000E-5,-0.004234,-0.004455
5.445000E-5,-0.004234,-0.004392
5.478000E-5,-0.004546,-0.004361
5.511000E-5,-0.004234,-0.004048
5.544000E-5,-0.003609,-0.003329
5.577000E-5,-0.003296,-0.003454
5.610000E-5,-0.002671,-0.003861
5.643000E-5,-0.002046,-0.004236
5.676000E-5,-0.002046,-0.004923
5.709000E-5,-0.002358,-0.005580
5.742000E-5,-0.002046,-0.004955
5.775000E-5,-0.001108,-0.003329
5.808000E-5,-0.001421,-0.003142
5.841000E-5,-0.000796,-0.004361
5.874000E-5,0.000455,-0.005267
5.907000E-5,0.000767,-0.005048
5.940000E-5,0.000767,-0.004173
5.973000E-5,0.002017,-0.003142
6.006000E-5,0.002955,-0.002548
6.039000E-5,0.005455,-0.002985
6.072000E-5,0.007956,-0.003610
6.105000E-5,0.010456,-0.003954
6.138000E-5,0.012331,-0.003923
6.171000E-5,0.013269,-0.003517
6.204000E-5,0.014832,-0.003485
6.237000E-5,0.017645,-0.003548
6.270000E-5,0.021083,-0.003267
6.303000E-5,0.026083,-0.003016
6.336000E-5,0.031397,-0.003079
6.369000E-5,0.037335,-0.003673
6.402000E-5,0.043898,-0.004611
6.435000E-5,0.050774,-0.005205
6.468000E-5,0.058588,-0.005205
6.501000E-5,0.067339,-0.004580
6.534000E-5,0.076403,-0.004048
6.567000E-5,0.087342,-0.004142
6.600000E-5,0.099219,-0.004548
6.633000E-5,0.112659,-0.004892
6.666000E-5,0.127973,-0.005267
6.699000E-5,0.143913,-0.005392
6.732000E-5,0.162354,-0.005048
6.765000E-5,0.181731,-0.004673
6.798000E-5,0.201734,-0.004455
6.831000E-5,0.224238,-0.004173
6.864000E-5,0.247054,-0.003954
6.897000E-5,0.271745,-0.004142
6.930000E-5,0.297999,-0.004736
6.963000E-5,0.325503,-0.005299
6.996000E-5,0.355195,-0.005392
7.029000E-5,0.385199,-0.005299
7.062000E-5,0.416766,-0.004580
7.095000E-5,0.449271,-0.003892
7.128000E-5,0.481463,-0.003454
7.161000E-5,0.514593,-0.003517
7.194000E-5,0.547723,-0.003861
7.227000E-5,0.580228,-0.004392
7.260000E-5,0.612733,-0.004673
7.293000E-5,0.644300,-0.004642
7.326000E-5,0.674930,-0.004486
7.359000E-5,0.705559,-0.004267
7.392000E-5,0.732751,-0.004111
7.425000E-5,0.760255,-0.004173
7.458000E-5,0.785259,-0.004017
7.491000E-5,0.808387,-0.004142
7.524000E-5,0.830578,-0.003986
7.557000E-5,0.849643,-0.003986
7.590000E-5,0.865896,-0.004361
7.623000E-5,0.880585,-0.004548
7.656000E-5,0.892150,-0.004736
7.689000E-5,0.902464,-0.004767
7.722000E-5,0.910902,-0.004861
7.755000E-5,0.915903,-0.004923
7.788000E-5,0.920279,-0.004580
7.821000E-5,0.922467,-0.004361
7.854000E-5,0.923717,-0.004048
7.887000E-5,0.924029,-0.003829
7.920000E-5,0.923717,-0.002798
7.953000E-5,0.921842,-0.003454
7.986000E-5,0.919341,-0.005330
8.019000E-5,0.916528,-0.006080
8.052000E-5,0.914340,-0.004861
8.085000E-5,0.910902,-0.003235
8.118000E-5,0.907152,-0.002923
8.151000E-5,0.905589,-0.003548
8.184000E-5,0.903714,-0.004986
8.217000E-5,0.904026,-0.006174
8.250000E-5,0.903714,-0.006455
8.283000E-5,0.903089,-0.005517
8.316000E-5,0.903714,-0.004142
8.349000E-5,0.905589,-0.003610
8.382000E-5,0.908715,-0.003423
8.415000E-5,0.913090,-0.003610
8.448000E-5,0.916528,-0.003548
8.481000E-5,0.920591,-0.003642
8.514000E-5,0.923404,-0.003923
8.547000E-5,0.926842,-0.004111
8.580000E-5,0.931218,-0.004361
8.613000E-5,0.935594,-0.004392
8.646000E-5,0.939969,-0.003923
8.679000E-5,0.944345,-0.003267
8.712000E-5,0.948095,-0.003423
8.745000E-5,0.950908,-0.004017
8.778000E-5,0.953096,-0.004705
8.811000E-5,0.953096,-0.004955
8.844000E-5,0.954346,-0.004736
8.877000E-5,0.954034,-0.004267
8.910000E-5,0.954346,-0.004142
8.943000E-5,0.953721,-0.003235
8.976000E-5,0.953096,-0.003110
9.009000E-5,0.952784,-0.004517
9.042000E-5,0.951533,-0.005799
9.075000E-5,0.950596,-0.005893
9.108000E-5,0.949033,-0.004892
9.141000E-5,0.947783,-0.004017
9.174000E-5,0.947470,-0.003392
9.207000E-5,0.947470,-0.003079
9.240000E-5,0.945908,-0.003673
9.273000E-5,0.944970,-0.004392
9.306000E-5,0.943720,-0.004455
9.339000E-5,0.942782,-0.004642
9.372000E-5,0.942782,-0.004830
9.405000E-5,0.943720,-0.004798
9.438000E-5,0.944657,-0.004830
9.471000E-5,0.945595,-0.004517
9.504000E-5,0.945908,-0.004267
9.537000E-5,0.946533,-0.004079
9.570000E-5,0.945595,-0.004204
9.603000E-5,0.944657,-0.004298
9.636000E-5,0.944657,-0.004173
9.669000E-5,0.944345,-0.004298
9.702000E-5,0.943720,-0.004173
9.735000E-5,0.942157,-0.003829
9.768000E-5,0.939969,-0.003829
9.801000E-5,0.938719,-0.004017
9.834000E-5,0.937156,-0.004298
9.867000E-5,0.936844,-0.004455
9.900000E-5,0.937469,-0.004642
9.933000E-5,0.937469,-0.004455
9.966000E-5,0.938094,-0.003923
9.999000E-5,0.937781,-0.003579
0.000100,0.937469,-0.003735
0.000101,0.936844,-0.004017
0.000101,0.935594,-0.004486
0.000101,0.935281,-0.004486
0.000102,0.935906,-0.004298
0.000102,0.936531,-0.004173
0.000102,0.937156,-0.003767
0.000103,0.938719,-0.003329
0.000103,0.939657,-0.003079
0.000103,0.940907,-0.003392
0.000104,0.941845,-0.003954
0.000104,0.943407,-0.004298
0.000104,0.944032,-0.004736
0.000105,0.943407,-0.004423
0.000105,0.943720,-0.003954
0.000105,0.942470,-0.002704
0.000106,0.940282,-0.002985
0.000106,0.939032,-0.004173
0.000106,0.936844,-0.005017
0.000107,0.937156,-0.004548
0.000107,0.936531,-0.003454
0.000107,0.934968,-0.003079
0.000108,0.935594,-0.003048
0.000108,0.935281,-0.003485
0.000108,0.934343,-0.004923
0.000109,0.934031,-0.006705
0.000109,0.933093,-0.007143
0.000109,0.933718,-0.005455
0.000110,0.934031,-0.004142
0.000110,0.934343,-0.003829
0.000110,0.935906,-0.003767
0.000111,0.937156,-0.004298
0.000111,0.938094,-0.005142
0.000111,0.939344,-0.005455
0.000112,0.939657,-0.004830
0.000112,0.940594,-0.004361
0.000112,0.941532,-0.003954
0.000113,0.943095,-0.003798
0.000113,0.945908,-0.003954
0.000113,0.946533,-0.004204
0.000114,0.946220,-0.004455
0.000114,0.945283,-0.004673
0.000114,0.943407,-0.004455
0.000115,0.942470,-0.004392
0.000115,0.941845,-0.003892
0.000115,0.941532,-0.003423
0.000115,0.943407,-0.002829
0.000116,0.943407,-0.003579
0.000116,0.943407,-0.005048
0.000116,0.943095,-0.005330
0.000117,0.942470,-0.004830
0.000117,0.942782,-0.004048
0.000117,0.943095,-0.003392
0.000118,0.944032,-0.003079
0.000118,0.945595,-0.002860
0.000118,0.945283,-0.003235
0.000119,0.945595,-0.003798
0.000119,0.945283,-0.004298
0.000119,0.945908,-0.004892
0.000120,0.946845,-0.004736
0.000120,0.948095,-0.004079
0.000120,0.949346,-0.003423
0.000121,0.950283,-0.003235
0.000121,0.950908,-0.003673
0.000121,0.952159,-0.004548
0.000122,0.952471,-0.005111
0.000122,0.951533,-0.005267
0.000122,0.951221,-0.004861
0.000123,0.949346,-0.004329
0.000123,0.948408,-0.003798
0.000123,0.947783,-0.003454
0.000124,0.946220,-0.003454
0.000124,0.945908,-0.003579
0.000124,0.945908,-0.003861
0.000125,0.945595,-0.004048
0.000125,0.946220,-0.004642
0.000125,0.947158,-0.004861
0.000126,0.948408,-0.004892
0.000126,0.949971,-0.004611
0.000126,0.950908,-0.004142
0.000127,0.951846,-0.003829
0.000127,0.951533,-0.003829
0.000127,0.950283,-0.003829
0.000128,0.949971,-0.003986
0.000128,0.949346,-0.004298
0.000128,0.949658,-0.004423
0.000129,0.950283,-0.004486
0.000129,0.949346,-0.004673
0.000129,0.949658,-0.004892
0.000130,0.949033,-0.004767
0.000130,0.948095,-0.004673
0.000130,0.948095,-0.004798
0.000131,0.946845,-0.004673
0.000131,0.945908,-0.004923
0.000131,0.944345,-0.004923
0.000132,0.941532,-0.005142
0.000132,0.939657,-0.004923
0.000132,0.938406,-0.004673
0.000133,0.936531,-0.004392
0.000133,0.935281,-0.004329
0.000133,0.933093,-0.004517
0.000134,0.932468,-0.004486
0.000134,0.932156,-0.004204
0.000134,0.932156,-0.003673
0.000135,0.932156,-0.003485
0.000135,0.930905,-0.003892
0.000135,0.929655,-0.004392
0.000136,0.928405,-0.004580
0.000136,0.926530,-0.004611
0.000136,0.925280,-0.004361
0.000137,0.923404,-0.004392
0.000137,0.921529,-0.004017
0.000137,0.919966,-0.004204
0.000138,0.915903,-0.004705
0.000138,0.912465,-0.005111
0.000138,0.909027,-0.004423
0.000139,0.904964,-0.003329
0.000139,0.902151,-0.003642
0.000139,0.899963,-0.004329
0.000140,0.897150,-0.005111
0.000140,0.893712,-0.005361
0.000140,0.888712,-0.004986
0.000141,0.883086,-0.004736
0.000141,0.878710,-0.004204
0.000141,0.875585,-0.004048
0.000142,0.873397,-0.003673
0.000142,0.870271,-0.003360
0.000142,0.863083,-0.003204
0.000143,0.852456,-0.003548
0.000143,0.837766,-0.003798
0.000143,0.820576,-0.003986
0.000144,0.801824,-0.004267
0.000144,0.782133,-0.004486
0.000144,0.762443,-0.004580
0.000145,0.741502,-0.004767
0.000145,0.720249,-0.004923
0.000145,0.698371,-0.004736
0.000146,0.676180,-0.004298
0.000146,0.655552,-0.004329
0.000146,0.634299,-0.004705
0.000147,0.613045,-0.004923
0.000147,0.590855,-0.004830
0.000147,0.568351,-0.004673
0.000148,0.545848,-0.004548
0.000148,0.524907,-0.004392
0.000148,0.503967,-0.004611
0.000148,0.483964,-0.005048
0.000149,0.463336,-0.005236
0.000149,0.438957,-0.005111
0.000149,0.412703,-0.004955
0.000150,0.384574,-0.004580
0.000150,0.355507,-0.005080
0.000150,0.327378,-0.005174
0.000151,0.299561,-0.004548
0.000151,0.272370,-0.003798
0.000151,0.246428,-0.004204
0.000152,0.221737,-0.005642
0.000152,0.199547,-0.005893
0.000152,0.179231,-0.005330
0.000153,0.159853,-0.004111
0.000153,0.142038,-0.003079
0.000153,0.126723,-0.003016
0.000154,0.114221,-0.003861
0.000154,0.102970,-0.004986
0.000154,0.092656,-0.005549
0.000155,0.083904,-0.005736
0.000155,0.074528,-0.005236
0.000155,0.067027,-0.004548
0.000156,0.062339,-0.003610
0.000156,0.059838,-0.002923
0.000156,0.059213,-0.002610
0.000157,0.057963,-0.003173
0.000157,0.055775,-0.004236
0.000157,0.053587,-0.005611
0.000158,0.051400,-0.006049
0.000158,0.051400,-0.005830
0.000158,0.054212,-0.004642
0.000159,0.058588,-0.003704
0.000159,0.064214,-0.003267
0.000159,0.069840,-0.003704
0.000160,0.074528,-0.004517
0.000160,0.077653,-0.005236
0.000160,0.079529,-0.005299
0.000161,0.081717,-0.004798
0.000161,0.084842,-0.003954
0.000161,0.088905,-0.003235
0.000162,0.097031,-0.002766
0.000162,0.102970,-0.003173
0.000162,0.104845,-0.003923
0.000163,0.101720,-0.004111
0.000163,0.092968,-0.004580
0.000163,0.087342,-0.004548
0.000164,0.085467,-0.004986
0.000164,0.086405,-0.004392
0.000164,0.090780,-0.003173
0.000165,0.094844,-0.003454
0.000165,0.097031,-0.004736
0.000165,0.096719,-0.005674
0.000166,0.092343,-0.005705
0.000166,0.086405,-0.005142
0.000166,0.077966,-0.004486
0.000167,0.068902,-0.004048
0.000167,0.060151,-0.003892
0.000167,0.051712,-0.004392
0.000168,0.047336,-0.004548
0.000168,0.047962,-0.003767
0.000168,0.051712,-0.003579
0.000169,0.056088,-0.004486
0.000169,0.058901,-0.005361
0.000169,0.059526,-0.005455
0.000170,0.057338,-0.004611
0.000170,0.053900,-0.003798
0.000170,0.051400,-0.003298
0.000171,0.051400,-0.003673
0.000171,0.052962,-0.004423
0.000171,0.058276,-0.004673
0.000172,0.065777,-0.004455
0.000172,0.071090,-0.004423
0.000172,0.074215,-0.004861
0.000173,0.073278,-0.005111
0.000173,0.071403,-0.005236
0.000173,0.069527,-0.005080
0.000174,0.068590,-0.004548
0.000174,0.069527,-0.004236
0.000174,0.067339,-0.004298
0.000175,0.060776,-0.004798
0.000175,0.052025,-0.004705
0.000175,0.045774,-0.004580
0.000176,0.044836,-0.004236
0.000176,0.047649,-0.004923
0.000176,0.051712,-0.005111
0.000177,0.055775,-0.003986
0.000177,0.057650,-0.003298
0.000177,0.059526,-0.004486
0.000178,0.062339,-0.005517
0.000178,0.063276,-0.005736
0.000178,0.062964,-0.005111
0.000179,0.060151,-0.004329
0.000179,0.055775,-0.003517
0.000179,0.051087,-0.003142
0.000180,0.045461,-0.003673
0.000180,0.040460,-0.004204
0.000180,0.037022,-0.004079
0.000181,0.037648,-0.003548
0.000181,0.042648,-0.003298
0.000181,0.048587,-0.003798
0.000181,0.053275,-0.004079
0.000182,0.056400,-0.004017
0.000182,0.057025,-0.003954
0.000182,0.055463,-0.003673
0.000183,0.051712,-0.003767
0.000183,0.049212,-0.004111
0.000183,0.049212,-0.004517
0.000184,0.050462,-0.004455
0.000184,0.050462,-0.004517
0.000184,0.048587,-0.004517
0.000185,0.045774,-0.004611
0.000185,0.045774,-0.004798
0.000185,0.048899,-0.004955
0.000186,0.054212,-0.005080
0.000186,0.063589,-0.005017
0.000186,0.073590,-0.004611
0.000187,0.077341,-0.004673
0.000187,0.075153,-0.004392
0.000187,0.067339,-0.004329
0.000188,0.057650,-0.004486
0.000188,0.047962,-0.004892
0.000188,0.037960,-0.005361
0.000189,0.029521,-0.005611
0.000189,0.024833,-0.005424
0.000189,0.025146,-0.004798
0.000190,0.029521,-0.004079
0.000190,0.035460,-0.003892
0.000190,0.041398,-0.003798
0.000191,0.046399,-0.004017
0.000191,0.048274,-0.004204
0.000191,0.048274,-0.004455
0.000192,0.046711,-0.004455
0.000192,0.046711,-0.004173
0.000192,0.049212,-0.003861
0.000193,0.052650,-0.003673
0.000193,0.053275,-0.003517
0.000193,0.049524,-0.003329
0.000194,0.042961,-0.003329
0.000194,0.038273,-0.003548
0.000194,0.036085,-0.004142
0.000195,0.037335,-0.004236
0.000195,0.039523,-0.004017
0.000195,0.040460,-0.003485
0.000196,0.041398,-0.003142
0.000196,0.042648,-0.003298
0.000196,0.042648,-0.003704
0.000197,0.043586,-0.003986
0.000197,0.043273,-0.004173
0.000197,0.042961,-0.004111
0.000198,0.041398,-0.004204
0.000198,0.040460,-0.004361
0.000198,0.039210,-0.004392
0.000199,0.038273,-0.003517
0.000199,0.036085,-0.003642
0.000199,0.033584,-0.004767
0.000200,0.029521,-0.005517
0.000200,0.027333,-0.004173
0.000200,0.027333,-0.002360
0.000201,0.030146,-0.001829
0.000201,0.036085,-0.002360
0.000201,0.042961,-0.003642
0.000202,0.049212,-0.004736
0.000202,0.051087,-0.005048
0.000202,0.046399,-0.004486
0.000203,0.039210,-0.003735
0.000203,0.032022,-0.003954
0.000203,0.027021,-0.004173
0.000204,0.025458,-0.004580
0.000204,0.024833,-0.004611
0.000204,0.023895,-0.004455
0.000205,0.024521,-0.004079
0.000205,0.025146,-0.003923
0.000205,0.026708,-0.004111
0.000206,0.027333,-0.004361
0.000206,0.027646,-0.004204
0.000206,0.028584,-0.004173
0.000207,0.031084,-0.004486
0.000207,0.034210,-0.004986
0.000207,0.037335,-0.005330
0.000208,0.038898,-0.005299
0.000208,0.041086,-0.004892
0.000208,0.042648,-0.004580
0.000209,0.042961,-0.004673
0.000209,0.042961,-0.005142
0.000209,0.039210,-0.005111
0.000210,0.034522,-0.005142
0.000210,0.029521,-0.004486
0.000210,0.024521,-0.004673
0.000211,0.023583,-0.005517
0.000211,0.025146,-0.005674
0.000211,0.028271,-0.004923
0.000212,0.031709,-0.004298
0.000212,0.033897,-0.004329
0.000212,0.036397,-0.004642
0.000213,0.039835,-0.005299
0.000213,0.041711,-0.005674
0.000213,0.043273,-0.005642
0.000214,0.045461,-0.004986
0.000214,0.047336,-0.004423
0.000214,0.051712,-0.004173
0.000214,0.055150,-0.004361
0.000215,0.055150,-0.004642
0.000215,0.049837,-0.004830
0.000215,0.041086,-0.004767
0.000216,0.032647,-0.004861
0.000216,0.025458,-0.004955
0.000216,0.020457,-0.004830
0.000217,0.018895,-0.004580
0.000217,0.018270,-0.004173
0.000217,0.020457,-0.003954
0.000218,0.023270,-0.004173
0.000218,0.026083,-0.004392
0.000218,0.029209,-0.004611
0.000219,0.031397,-0.004642
0.000219,0.033584,-0.004611
0.000219,0.037960,-0.004267
0.000220,0.041398,-0.003579
0.000220,0.043586,-0.003016
0.000220,0.041711,-0.002860
0.000221,0.036085,-0.003267
0.000221,0.029209,-0.003829
0.000221,0.021395,-0.004361
0.000222,0.015144,-0.004705
0.000222,0.009518,-0.004923
0.000222,0.005143,-0.004392
0.000223,0.002955,-0.003579
0.000223,0.003267,-0.002485
0.000223,0.005768,-0.002423
0.000224,0.009206,-0.003861
0.000224,0.012019,-0.005080
0.000224,0.014519,-0.004892
0.000225,0.016707,-0.003735
0.000225,0.017019,-0.002891
0.000225,0.018582,-0.003235
0.000226,0.021395,-0.003829
0.000226,0.025771,-0.004517
0.000226,0.029834,-0.004986
0.000227,0.029209,-0.005299
0.000227,0.022958,-0.006018
0.000227,0.013269,-0.006205
0.000228,-0.000483,-0.006018
0.000228,-0.011422,-0.005955
0.000228,-0.017361,-0.006643
0.000229,-0.017048,-0.007080
0.000229,-0.011735,-0.006174
0.000229,-0.005796,-0.005174
0.000230,-0.001108,-0.004705
0.000230,0.003267,-0.004673
0.000230,0.005768,-0.004580
0.000231,0.008268,-0.004861
0.000231,0.009206,-0.004923
0.000231,0.007643,-0.004642
0.000232,0.005143,-0.003923
0.000232,0.001392,-0.003517
0.000232,0.000142,-0.003735
0.000233,-0.000483,-0.003892
0.000233,-0.001733,-0.003861
0.000233,-0.002046,-0.004236
0.000234,-0.002671,-0.004517
0.000234,-0.002983,-0.004798
0.000234,-0.001733,-0.004767
0.000235,-0.001108,-0.005205
0.000235,0.000455,-0.004923
0.000235,0.001080,-0.004267
0.000236,0.002330,-0.003392
0.000236,0.003893,-0.002860
0.000236,0.006393,-0.002641
0.000237,0.007956,-0.002923
0.000237,0.009206,-0.003485
0.000237,0.009206,-0.003954
0.000238,0.009206,-0.004705
0.000238,0.009206,-0.005549
0.000238,0.010769,-0.006174
0.000239,0.014832,-0.005642
0.000239,0.019207,-0.004486
0.000239,0.022333,-0.003454
0.000240,0.022333,-0.003110
0.000240,0.018582,-0.003142
0.000240,0.014207,-0.003517
0.000241,0.009831,-0.004079
0.000241,0.008268,-0.004673
0.000241,0.009518,-0.004861
0.000242,0.010143,-0.005080
0.000242,0.011394,-0.005267
0.000242,0.012644,-0.005299
0.000243,0.012956,-0.005267
0.000243,0.012956,-0.005205
0.000243,0.013894,-0.005299
0.000244,0.015769,-0.004955
0.000244,0.018895,-0.004580
0.000244,0.020770,-0.004079
0.000245,0.022333,-0.004142
0.000245,0.023270,-0.003986
0.000245,0.024833,-0.004204
0.000246,0.027959,-0.004486
0.000246,0.030459,-0.004455
0.000246,0.030772,-0.004580
0.000247,0.028896,-0.004517
0.000247,0.024833,-0.004142
0.000247,0.018582,-0.003923
0.000247,0.010769,-0.004142
0.000248,0.002017,-0.004455
0.000248,-0.005171,-0.004673
0.000248,-0.009547,-0.004798
0.000249,-0.007672,-0.004767
0.000249,-0.002358,-0.004673
0.000249,0.003267,-0.004392
0.000250,0.009206,-0.004236
0.000250,0.014207,-0.004298
0.000250,0.017645,-0.004517
0.000251,0.021708,-0.004611
0.000251,0.027021,-0.004673
0.000251,0.034210,-0.004517
0.000252,0.038898,-0.004705
0.000252,0.037335,-0.004923
0.000252,0.030146,-0.004736
0.000253,0.018270,-0.004673
0.000253,0.004205,-0.004580
0.000253,-0.006422,-0.004204
0.000254,-0.013610,-0.004017
0.000254,-0.014860,-0.004204
0.000254,-0.011110,-0.004298
0.000255,-0.005171,-0.004298
0.000255,0.001392,-0.004329
0.000255,0.007331,-0.003923
0.000256,0.011706,-0.003517
0.000256,0.016082,-0.003392
0.000256,0.019207,-0.003173
0.000257,0.021395,-0.003704
0.000257,0.024521,-0.003923
0.000257,0.028896,-0.004767
0.000258,0.035147,-0.004580
0.000258,0.037648,-0.003923
0.000258,0.033897,-0.004111
0.000259,0.027021,-0.004486
0.000259,0.014832,-0.005017
0.000259,0.000142,-0.005299
0.000260,-0.012360,-0.005080
0.000260,-0.021111,-0.005017
0.000260,-0.022986,-0.004642
0.000261,-0.017361,-0.004548
0.000261,-0.007672,-0.004267
0.000261,0.002642,-0.004236
0.000262,0.009518,-0.004642
0.000262,0.013581,-0.004955
0.000262,0.016394,-0.005048
0.000263,0.018895,-0.004705
0.000263,0.024833,-0.003954
0.000263,0.032647,-0.003360
0.000264,0.038273,-0.003235
0.000264,0.039835,-0.003704
0.000264,0.035772,-0.004361
0.000265,0.027646,-0.004923
0.000265,0.016707,-0.005017
0.000265,0.004830,-0.004830
0.000266,-0.004546,-0.004142
0.000266,-0.010485,-0.003704
0.000266,-0.010485,-0.003267
0.000267,-0.004859,-0.003235
0.000267,0.001080,-0.003548
0.000267,0.007018,-0.003954
0.000268,0.010143,-0.004548
0.000268,0.011394,-0.004923
0.000268,0.014207,-0.004798
0.000269,0.017957,-0.004861
0.000269,0.022333,-0.004767
0.000269,0.025146,-0.004361
0.000270,0.024521,-0.004548
0.000270,0.022333,-0.004923
0.000270,0.019832,-0.004361
0.000271,0.016707,-0.003173
0.000271,0.012331,-0.003048
0.000271,0.007956,-0.004048
0.000272,0.005768,-0.005236
0.000272,0.006393,-0.005580
0.000272,0.007018,-0.005361
0.000273,0.007331,-0.004767
0.000273,0.006393,-0.004486
0.000273,0.004830,-0.004392
0.000274,0.004518,-0.004986
0.000274,0.004205,-0.005705
0.000274,0.005768,-0.005736
0.000275,0.007018,-0.005392
0.000275,0.007956,-0.005267
0.000275,0.009831,-0.005424
0.000276,0.012644,-0.005236
0.000276,0.014519,-0.004955
0.000276,0.017645,-0.004486
0.000277,0.020145,-0.004361
0.000277,0.022958,-0.004861
0.000277,0.024208,-0.005299
0.000278,0.020457,-0.005174
0.000278,0.013581,-0.004204
0.000278,0.003267,-0.003048
0.000279,-0.007672,-0.001829
0.000279,-0.015798,-0.001203
0.000279,-0.019236,-0.000578
0.000280,-0.018298,-0.000109
0.000280,-0.015173,0.000641
0.000280,-0.013298,0.001579
0.000280,-0.011735,0.002986
0.000281,-0.010797,0.004986
0.000281,-0.010172,0.007144
0.000281,-0.008922,0.009394
0.000282,-0.008609,0.011176
0.000282,-0.007047,0.012489
0.000282,-0.004546,0.015303
0.000283,-0.003921,0.019367
0.000283,-0.004234,0.023306
0.000283,-0.007984,0.027432
0.000284,-0.014235,0.032184
0.000284,-0.021111,0.037498
0.000284,-0.027987,0.043000
0.000285,-0.031425,0.049284
0.000285,-0.031738,0.056193
0.000285,-0.030175,0.063727
0.000286,-0.027050,0.072230
0.000286,-0.025174,0.081452
0.000286,-0.024862,0.092019
0.000287,-0.025487,0.103773
0.000287,-0.027050,0.116653
0.000287,-0.026424,0.130908
0.000288,-0.024549,0.145820
0.000288,-0.022361,0.161013
0.000288,-0.017986,0.177800
0.000289,-0.015173,0.196401
0.000289,-0.012047,0.216315
0.000289,-0.008297,0.237698
0.000290,-0.005796,0.259737
0.000290,-0.004234,0.282214
0.000290,-0.004234,0.305911
0.000291,-0.005484,0.330764
0.000291,-0.007672,0.357149
0.000291,-0.010797,0.384284
0.000292,-0.011735,0.412076
0.000292,-0.011422,0.440336
0.000292,-0.009234,0.468910
0.000293,-0.006422,0.498233
0.000293,-0.004234,0.527901
0.000293,-0.002671,0.557287
0.000294,-0.001421,0.586080
0.000294,-0.000483,0.614466
0.000294,0.000767,0.642352
0.000295,0.002642,0.669925
0.000295,0.002017,0.698030
0.000295,0.000142,0.725322
0.000296,-0.002671,0.749894
0.000296,-0.005171,0.772184
0.000296,-0.005484,0.794161
0.000297,-0.007359,0.816545
0.000297,-0.008609,0.838304
0.000297,-0.010485,0.859187
0.000298,-0.011422,0.878039
0.000298,-0.010485,0.893889
0.000298,-0.008297,0.907332
0.000299,-0.007359,0.919337
0.000299,-0.006734,0.930654
0.000299,-0.009547,0.941315
0.000300,-0.011422,0.950725
0.000300,-0.012672,0.958884
0.000300,-0.012672,0.966043
0.000301,-0.011735,0.972421
0.000301,-0.011110,0.976704
0.000301,-0.011110,0.978486
0.000302,-0.009234,0.978424
0.000302,-0.008609,0.978017
0.000302,-0.007359,0.976798
0.000303,-0.006109,0.973828
0.000303,-0.003921,0.969357
0.000303,-0.000796,0.964668
0.000304,0.001392,0.960104
0.000304,0.001705,0.955602
0.000304,-0.001421,0.951194
0.000305,-0.006422,0.946567
0.000305,-0.010485,0.941315
0.000305,-0.011735,0.935187
0.000306,-0.011422,0.927840
0.000306,-0.009234,0.919493
0.000306,-0.007984,0.910177
0.000307,-0.007672,0.901173
0.000307,-0.008609,0.893264
0.000307,-0.008609,0.887167
0.000308,-0.006734,0.882822
0.000308,-0.005796,0.880509
0.000308,-0.006734,0.880040
0.000309,-0.010485,0.881228
0.000309,-0.017048,0.883479
0.000309,-0.022049,0.886824
0.000310,-0.024862,0.890325
0.000310,-0.024237,0.894514
0.000310,-0.021111,0.899579
0.000311,-0.019548,0.906144
0.000311,-0.019236,0.912021
0.000311,-0.016423,0.917649
0.000312,-0.012985,0.923307
0.000312,-0.008609,0.929966
0.000312,-0.004859,0.937344
0.000313,-0.001108,0.945785
0.000313,0.002330,0.953882
0.000313,0.003267,0.961198
0.000313,0.001392,0.967325
0.000314,-0.002046,0.972452
0.000314,-0.007984,0.976235
0.000314,-0.012672,0.978861
0.000315,-0.014860,0.980299
0.000315,-0.014235,0.980674
0.000315,-0.010797,0.979486
0.000316,-0.007672,0.976298
0.000316,-0.005484,0.972077
0.000316,-0.003609,0.967263
0.000317,-0.003609,0.962292
0.000317,-0.003609,0.957415
0.000317,-0.002358,0.952475
0.000318,-0.001421,0.947254
0.000318,0.000142,0.941721
0.000318,-0.000171,0.935437
0.000319,0.000142,0.928778
0.000319,0.000767,0.923120
0.000319,0.000767,0.919462
0.000320,0.000767,0.916554
0.000320,0.000455,0.913209
0.000320,0.000455,0.909364
0.000321,0.001392,0.904893
0.000321,0.002017,0.901173
0.000321,0.001705,0.899016
0.000322,0.001392,0.899641
0.000322,0.000142,0.902205
0.000322,0.000767,0.906175
0.000323,0.002642,0.911490
0.000323,0.004518,0.917993
0.000323,0.007018,0.925683
0.000324,0.007331,0.932967
0.000324,0.007018,0.939501
0.000324,0.007331,0.945441
0.000325,0.007018,0.950568
0.000325,0.008268,0.955195
0.000325,0.010769,0.959478
0.000326,0.013581,0.962855
0.000326,0.014207,0.964793
0.000326,0.012019,0.965700
0.000327,0.010143,0.965981
0.000327,0.007643,0.965825
0.000327,0.004830,0.965106
0.000328,0.002017,0.963417
0.000328,-0.000483,0.960447
0.000328,-0.000483,0.956758
0.000329,0.000767,0.952694
0.000329,0.002330,0.947755
0.000329,0.003893,0.942628
0.000330,0.004518,0.936469
0.000330,0.005143,0.929935
0.000330,0.006705,0.924839
0.000331,0.007018,0.921275
0.000331,0.007331,0.918930
0.000331,0.007331,0.916429
0.000332,0.006393,0.914272
0.000332,0.006393,0.913022
0.000332,0.007018,0.913710
0.000333,0.007643,0.915898
0.000333,0.008893,0.919181
0.000333,0.009518,0.923245
0.000334,0.010143,0.927840
0.000334,0.010456,0.932999
0.000334,0.011081,0.938626
0.000335,0.012956,0.944066
0.000335,0.014832,0.949787
0.000335,0.014207,0.955039
0.000336,0.012956,0.959541
0.000336,0.010456,0.962730
0.000336,0.007018,0.964887
0.000337,0.002955,0.965106
0.000337,0.001392,0.963542
0.000337,0.003267,0.960635
0.000338,0.006393,0.957008
0.000338,0.010143,0.953507
0.000338,0.012956,0.949756
0.000339,0.014519,0.946035
0.000339,0.016082,0.942284
0.000339,0.017957,0.939126
0.000340,0.019520,0.936313
0.000340,0.023270,0.933780
0.000340,0.026083,0.931717
0.000341,0.025458,0.929310
0.000341,0.023270,0.927434
0.000341,0.017957,0.926090
0.000342,0.012956,0.925965
0.000342,0.008581,0.925433
0.000342,0.006393,0.924057
0.000343,0.007643,0.923714
0.000343,0.009518,0.925527
0.000343,0.011706,0.928872
0.000344,0.013581,0.932592
0.000344,0.015144,0.936156
0.000344,0.016394,0.940002
0.000345,0.017332,0.944879
0.000345,0.017645,0.950600
0.000345,0.018270,0.957071
0.000346,0.017645,0.962542
0.000346,0.017332,0.966106
0.000346,0.017645,0.967325
0.000346,0.017957,0.966575
0.000347,0.019207,0.964480
0.000347,0.018270,0.961573
0.000347,0.016707,0.958572
0.000348,0.015457,0.954789
0.000348,0.012956,0.950099
0.000348,0.012331,0.945816
0.000349,0.012644,0.942690
0.000349,0.011706,0.939251
0.000349,0.010769,0.933843
0.000350,0.009831,0.927371
0.000350,0.009518,0.920900
0.000350,0.009518,0.914991
0.000351,0.008268,0.909614
0.000351,0.007956,0.905519
0.000351,0.007956,0.902424
0.000352,0.007956,0.898828
0.000352,0.010143,0.896515
0.000352,0.012019,0.895577
0.000353,0.013894,0.897484
0.000353,0.015457,0.901517
0.000353,0.015144,0.906863
0.000354,0.016394,0.913491
0.000354,0.016707,0.919931
0.000354,0.017957,0.925621
0.000355,0.019520,0.930498
0.000355,0.019520,0.934749
0.000355,0.017957,0.937751
0.000356,0.017957,0.939751
0.000356,0.016707,0.940470
0.000356,0.016082,0.939751
0.000357,0.015769,0.937094
0.000357,0.015144,0.932686
0.000357,0.016394,0.926308
0.000358,0.017957,0.917742
0.000358,0.018895,0.907301
0.000358,0.020145,0.896234
0.000359,0.021083,0.884948
0.000359,0.022958,0.873912
0.000359,0.024521,0.864189
0.000360,0.025146,0.855217
0.000360,0.024208,0.846807
0.000360,0.022958,0.837554
0.000361,0.022645,0.827612
0.000361,0.023270,0.817233
0.000361,0.025146,0.806416
0.000362,0.027021,0.795287
0.000362,0.028896,0.784501
0.000362,0.029209,0.773966
0.000363,0.029209,0.764650
0.000363,0.028271,0.756553
0.000363,0.027646,0.749206
0.000364,0.026396,0.742234
0.000364,0.025146,0.735451
0.000364,0.023583,0.728573
0.000365,0.022958,0.721351
0.000365,0.023270,0.712598
0.000365,0.024833,0.702406
0.000366,0.026396,0.690245
0.000366,0.027646,0.676177
0.000366,0.028584,0.660921
0.000367,0.028896,0.644477
0.000367,0.028271,0.628096
0.000367,0.029209,0.612371
0.000368,0.031084,0.597115
0.000368,0.032022,0.581609
0.000368,0.031709,0.565165
0.000369,0.031397,0.547502
0.000369,0.029834,0.529120
0.000369,0.027333,0.509331
0.000370,0.026083,0.487948
0.000370,0.024521,0.464252
0.000370,0.024521,0.438898
0.000371,0.025771,0.412638
0.000371,0.024833,0.386566
0.000371,0.025146,0.361431
0.000372,0.024833,0.337485
0.000372,0.024208,0.314539
0.000372,0.024208,0.293218
0.000373,0.022958,0.273617
0.000373,0.021395,0.254923
0.000373,0.019832,0.236885
0.000374,0.018582,0.218097
0.000374,0.016707,0.198996
0.000374,0.015457,0.180332
0.000375,0.014207,0.163264
0.000375,0.014207,0.148352
0.000375,0.014519,0.134909
0.000376,0.014519,0.123687
0.000376,0.015457,0.114714
0.000376,0.014519,0.106868
0.000377,0.014207,0.099553
0.000377,0.012331,0.093269
0.000377,0.009831,0.086673
0.000378,0.007643,0.078732
0.000378,0.005768,0.069729
0.000378,0.003267,0.060226
0.000379,0.001392,0.051160
0.000379,-0.000796,0.044063
0.000379,-0.002671,0.038593
0.000379,-0.003609,0.033903
0.000380,-0.004546,0.029964
0.000380,-0.004859,0.027495
0.000380,-0.005796,0.026682
0.000381,-0.006422,0.026901
0.000381,-0.006734,0.028089
0.000381,-0.008297,0.030027
0.000382,-0.008297,0.032715
0.000382,-0.008609,0.035873
0.000382,-0.008297,0.038561
0.000383,-0.007984,0.040812
0.000383,-0.007984,0.043219
0.000383,-0.007984,0.046220
0.000384,-0.009860,0.049659
0.000384,-0.011422,0.053317
0.000384,-0.012047,0.057537
0.000385,-0.013298,0.062320
0.000385,-0.012360,0.067228
0.000385,-0.010172,0.072042
0.000386,-0.008297,0.075825
0.000386,-0.005796,0.078326
0.000386,-0.004234,0.079858
0.000387,-0.002983,0.080733
0.000387,-0.001108,0.081702
0.000387,-0.000483,0.082546
0.000388,0.000767,0.083203
0.000388,0.003580,0.083203
0.000388,0.004205,0.083078
0.000389,0.005143,0.082390
0.000389,0.004518,0.081358
0.000389,0.002330,0.080452
0.000390,0.002330,0.079045
0.000390,0.003267,0.077732
0.000390,0.005143,0.077294
0.000391,0.007643,0.077232
0.000391,0.009206,0.075856
0.000391,0.011706,0.073230
0.000392,0.013581,0.070729
0.000392,0.012331,0.069448
0.000392,0.009831,0.068760
0.000393,0.005143,0.067384
0.000393,0.001705,0.064884
0.000393,-0.002046,0.060913
0.000394,-0.004859,0.056599
0.000394,-0.005484,0.052160
0.000394,-0.004859,0.048034
0.000395,-0.004234,0.043938
0.000395,-0.003609,0.040656
0.000395,-0.002671,0.038217
0.000396,-0.001421,0.036842
0.000396,-0.001108,0.036467
0.000396,-0.001421,0.036842
0.000397,-0.000796,0.037655
0.000397,-0.000483,0.038405
0.000397,-0.000171,0.038874
0.000398,0.001080,0.039687
0.000398,0.001705,0.041219
0.000398,0.002642,0.043219
0.000399,0.002955,0.045032
0.000399,0.002642,0.046846
0.000399,0.002955,0.049222
0.000400,0.003893,0.052129
0.000400,0.004830,0.055067
0.000400,0.006080,0.057506
0.000401,0.007643,0.060382
0.000401,0.009831,0.062539
0.000401,0.012644,0.062977
0.000402,0.014519,0.062133
0.000402,0.016394,0.060694
0.000402,0.014519,0.059413
0.000403,0.011081,0.058162
0.000403,0.007331,0.056818
0.000403,0.003267,0.054817
0.000404,0.001392,0.052285
0.000404,0.000455,0.049253
0.000404,0.000455,0.046502
0.000405,0.001080,0.044095
0.000405,0.000767,0.042938
0.000405,0.001080,0.043501
0.000406,0.002017,0.045189
0.000406,0.002642,0.046502
0.000406,0.003893,0.047064
0.000407,0.004205,0.046064
0.000407,0.002330,0.044188
0.000407,0.000455,0.042219
0.000408,-0.000171,0.041469
0.000408,-0.000483,0.041562
0.000408,0.000455,0.041938
0.000409,0.000767,0.042188
0.000409,0.001080,0.042719
0.000409,0.000767,0.043845
0.000410,0.000455,0.045439
0.000410,-0.000483,0.047221
0.000410,-0.000796,0.048721
0.000411,0.000455,0.049315
0.000411,0.002642,0.048659
0.000411,0.004518,0.047690
0.000412,0.006705,0.046939
0.000412,0.007018,0.046095
0.000412,0.007331,0.045251
0.000412,0.008581,0.045001
0.000413,0.008581,0.044564
0.000413,0.009206,0.044470
0.000413,0.008581,0.043813
0.000414,0.007018,0.042844
0.000414,0.006705,0.042969
0.000414,0.006705,0.043938
0.000415,0.005768,0.043688
0.000415,0.006393,0.042594
0.000415,0.006393,0.041875
0.000416,0.007018,0.041781
0.000416,0.006393,0.042125
0.000416,0.005455,0.042313
0.000417,0.006080,0.041437
0.000417,0.006393,0.039781
0.000417,0.007643,0.037530
0.000418,0.009206,0.036310
0.000418,0.009206,0.035560
0.000418,0.009206,0.035341
0.000419,0.008893,0.034747
0.000419,0.008581,0.034404
0.000419,0.008893,0.034153
0.000420,0.008268,0.034279
0.000420,0.007643,0.034341
0.000420,0.006705,0.034091
0.000421,0.006705,0.033122
0.000421,0.008581,0.031934
0.000421,0.009518,0.031246
0.000422,0.009518,0.031309
0.000422,0.006705,0.031809
0.000422,0.002955,0.031996
0.000423,0.000767,0.031746
0.000423,0.000455,0.031465
0.000423,0.001392,0.031653
0.000424,0.003893,0.032403
0.000424,0.005455,0.033372
0.000424,0.005768,0.034060
0.000425,0.007018,0.034497
0.000425,0.007018,0.034529
0.000425,0.008581,0.034310
0.000426,0.010769,0.033903
0.000426,0.011394,0.033810
0.000426,0.011394,0.034247
0.000427,0.008581,0.034872
0.000427,0.005455,0.035967
0.000427,0.002330,0.036436
0.000428,-0.000483,0.036404
0.000428,0.000142,0.035498
0.000428,0.000767,0.034279
0.000429,0.001080,0.033028
0.000429,0.002330,0.031434
0.000429,0.002017,0.029652
0.000430,0.002330,0.028370
0.000430,0.003893,0.027714
0.000430,0.004518,0.027807
0.000431,0.005768,0.028214
0.000431,0.007018,0.028933
0.000431,0.006393,0.029433
0.000432,0.005455,0.030152
0.000432,0.004830,0.030683
0.000432,0.003580,0.030934
0.000433,0.003893,0.031090
0.000433,0.003580,0.031402
0.000433,0.004518,0.031653
0.000434,0.005455,0.032559
0.000434,0.006705,0.034028
0.000434,0.007956,0.036092
0.000435,0.008268,0.038499
0.000435,0.009518,0.040531
0.000435,0.011081,0.041656
0.000436,0.014519,0.042000
0.000436,0.017645,0.040906
0.000436,0.018582,0.038749
0.000437,0.017019,0.035810
0.000437,0.014832,0.033903
0.000437,0.009831,0.030683
0.000438,0.006705,0.026557
0.000438,0.006393,0.023493
0.000438,0.006393,0.023337
0.000439,0.007331,0.025056
0.000439,0.007643,0.026963
0.000439,0.007956,0.028183
0.000440,0.008268,0.028401
0.000440,0.008581,0.027839
0.000440,0.008581,0.027839
0.000441,0.008581,0.028464
0.000441,0.008268,0.028683
0.000441,0.010143,0.027964
0.000442,0.010769,0.026557
0.000442,0.011081,0.025807
0.000442,0.009518,0.025588
0.000443,0.006705,0.026119
0.000443,0.004518,0.026651
0.000443,0.003267,0.026744
0.000444,0.002330,0.026713
0.000444,0.002642,0.026682
0.000444,0.002017,0.027088
0.000445,0.002017,0.026963
0.000445,0.001080,0.025369
0.000445,0.000455,0.022180
0.000445,0.001080,0.018054
0.000446,0.002017,0.013927
0.000446,0.001392,0.009457
0.000446,0.001080,0.005424
0.000447,-0.000483,0.003423
0.000447,-0.002671,0.004361
0.000447,-0.003296,0.007175
0.000448,-0.003609,0.009644
0.000448,-0.002671,0.010207
0.000448,-0.001421,0.009676
0.000449,-0.000171,0.008081
0.000449,0.000455,0.006424
0.000449,0.000767,0.005956
0.000450,0.000455,0.005768
0.000450,-0.000171,0.004893
0.000450,-0.000483,0.003955
0.000451,0.000455,0.004111
0.000451,0.000455,0.004861
0.000451,-0.000796,0.006362
0.000452,-0.001108,0.008488
0.000452,-0.002671,0.010332
0.000452,-0.004234,0.011176
0.000453,-0.005171,0.011208
0.000453,-0.006734,0.010957
0.000453,-0.006734,0.010957
0.000454,-0.005796,0.010238
0.000454,-0.004234,0.008456
0.000454,-0.002671,0.005612
0.000455,-0.001733,0.002923
0.000455,-0.000171,0.000391
0.000455,0.001080,-0.001829
0.000456,0.001705,-0.003517
0.000456,0.001705,-0.004455
0.000456,0.000767,-0.004361
0.000457,-0.000483,-0.003110
0.000457,-0.001733,-0.000984
0.000457,-0.004859,0.001204
0.000458,-0.007047,0.002798
0.000458,-0.009547,0.004236
0.000458,-0.010485,0.005862
0.000459,-0.010172,0.007550
0.000459,-0.008609,0.009426
0.000459,-0.007359,0.011364
0.000460,-0.005796,0.012708
0.000460,-0.006109,0.011801
0.000460,-0.005796,0.009895
0.000461,-0.005171,0.008988
0.000461,-0.003921,0.010614
0.000461,-0.002983,0.012458
0.000462,-0.003296,0.013521
0.000462,-0.004859,0.014115
0.000462,-0.007359,0.014240
0.000463,-0.011110,0.014209
0.000463,-0.012985,0.014709
0.000463,-0.012360,0.015178
0.000464,-0.010485,0.015459
0.000464,-0.007672,0.015678
0.000464,-0.005171,0.016241
0.000465,-0.003296,0.017679
0.000465,-0.002046,0.018992
0.000465,-0.001108,0.019711
0.000466,0.001705,0.019836
0.000466,0.003580,0.019711
0.000466,0.003580,0.019836
0.000467,0.002955,0.020430
0.000467,-0.000796,0.021555
0.000467,-0.003609,0.023399
0.000468,-0.006109,0.025713
0.000468,-0.006734,0.028214
0.000468,-0.005796,0.029339
0.000469,-0.004234,0.028745
0.000469,-0.002046,0.027401
0.000469,0.000142,0.027245
0.000470,0.000142,0.026870
0.000470,0.000455,0.025056
0.000470,0.000142,0.021680
0.000471,-0.000796,0.017616
0.000471,-0.001108,0.013896
0.000471,-0.002983,0.012083
0.000472,-0.005484,0.013083
0.000472,-0.007359,0.015303
0.000472,-0.008609,0.017335
0.000473,-0.008297,0.017929
0.000473,-0.006734,0.017366
0.000473,-0.005484,0.016803
0.000474,-0.003921,0.016866
0.000474,-0.004234,0.017022
0.000474,-0.003296,0.016960
0.000475,-0.001421,0.016584
0.000475,0.000455,0.015959
0.000475,0.001080,0.015647
0.000476,0.000142,0.015334
0.000476,-0.002671,0.015459
0.000476,-0.005796,0.015365
0.000477,-0.008609,0.016022
0.000477,-0.010172,0.017147
0.000477,-0.009234,0.018773
0.000478,-0.007984,0.019586
0.000478,-0.007359,0.019461
0.000478,-0.006734,0.018304
0.000478,-0.006422,0.016491
0.000479,-0.005796,0.014052
0.000479,-0.004546,0.011364
0.000479,-0.002358,0.008738
0.000480,0.000455,0.006831
0.000480,0.000767,0.006049
0.000480,-0.001108,0.006612
0.000481,-0.004234,0.007675
0.000481,-0.007047,0.008957
0.000481,-0.008922,0.009488
0.000482,-0.008922,0.009113
0.000482,-0.008609,0.008206
0.000482,-0.007359,0.007144
0.000483,-0.006422,0.006331
0.000483,-0.005484,0.005924
0.000483,-0.005484,0.005862
0.000484,-0.005484,0.006049
0.000484,-0.004546,0.006518
0.000484,-0.003296,0.007237
0.000485,-0.002358,0.007894
0.000485,-0.001733,0.008456
0.000485,-0.002046,0.008988
0.000486,-0.001421,0.009769
0.000486,-0.001733,0.010582
0.000486,-0.001733,0.011114
0.000487,-0.002983,0.011301
0.000487,-0.004859,0.010488
0.000487,-0.005796,0.009301
0.000488,-0.005796,0.007925
0.000488,-0.005796,0.006925
0.000488,-0.004546,0.006456
0.000489,-0.004234,0.006081
0.000489,-0.003609,0.005705
0.000489,-0.003609,0.004924
0.000490,-0.004234,0.003423
0.000490,-0.003921,0.001298
0.000490,-0.004546,-0.000547
0.000491,-0.004546,-0.001578
0.000491,-0.004234,-0.001672
0.000491,-0.003921,-0.000797
0.000492,-0.003296,0.001141
0.000492,-0.003296,0.003611
0.000492,-0.003296,0.006331
0.000493,-0.003296,0.008550
0.000493,-0.002358,0.010301
0.000493,-0.001421,0.011145
0.000494,0.000455,0.011364
0.000494,0.000767,0.010488
0.000494,0.000767,0.009988
0.000495,0.001080,0.010832
0.000495,0.000455,0.011989
0.000495,0.000142,0.013865
0.000496,-0.000483,0.016428
0.000496,-0.002358,0.017866
0.000496,-0.002671,0.017241
0.000497,-0.002046,0.014490
0.000497,-0.000171,0.010520
0.000497,0.000767,0.005487
0.000498,0.001080,0.000203
0.000498,0.001080,-0.005174
0.000498,0.000142,-0.011176
0.000499,-0.000171,-0.016709
0.000499,0.001705,-0.020335
0.000499,0.004205,-0.021023
0.000500,0.007331,-0.018835
0.000500,0.008268,-0.015334
0.000500,0.006080,-0.011113
0.000501,0.002642,-0.007424
0.000501,-0.000796,-0.003704
0.000501,-0.003921,1.588827E-5
0.000502,-0.005484,0.002892
0.000502,-0.006734,0.003236
0.000502,-0.005796,0.001985
0.000503,-0.003921,0.001204
0.000503,-0.002671,0.001673
0.000503,-0.001733,0.002204
0.000504,-0.000483,0.002954
0.000504,0.000767,0.003517
0.000504,0.002955,0.003955
0.000505,0.004518,0.004236
0.000505,0.006080,0.005049
0.000505,0.005455,0.006424
0.000506,0.004205,0.007300
0.000506,0.002017,0.007612
0.000506,-0.000483,0.006893
0.000507,-0.002046,0.005080
0.000507,-0.002671,0.001829
0.000507,-0.002983,-0.002641
0.000508,-0.001421,-0.007362
0.000508,0.000767,-0.011426
0.000508,0.001705,-0.013302
0.000509,0.002955,-0.012051
0.000509,0.003893,-0.008519
0.000509,0.004830,-0.005174
0.000510,0.007018,-0.002485
0.000510,0.008581,-0.001672
0.000510,0.010456,-0.001610
0.000511,0.011081,-0.000922
0.000511,0.009206,-0.000359
0.000511,0.007018,-0.001110
0.000511,0.003580,-0.002516
0.000512,0.002017,-0.003454
0.000512,0.002330,-0.003298
0.000512,0.003267,-0.002891
0.000513,0.004830,-0.002735
0.000513,0.007331,-0.003673
0.000513,0.009518,-0.006236
0.000514,0.013269,-0.010175
0.000514,0.014519,-0.014458
0.000514,0.015769,-0.018710
0.000515,0.015144,-0.022555
0.000515,0.012956,-0.026119
0.000515,0.012019,-0.029339
0.000516,0.010769,-0.032527
0.000516,0.010769,-0.035685
0.000516,0.012019,-0.039342
0.000517,0.013269,-0.043813
0.000517,0.015144,-0.049596
0.000517,0.016707,-0.056411
0.000518,0.017019,-0.063320
0.000518,0.018582,-0.070760
0.000518,0.019832,-0.079013
0.000519,0.021708,-0.087297
0.000519,0.022958,-0.095894
0.000519,0.024208,-0.106148
0.000520,0.025146,-0.117496
0.000520,0.025146,-0.128625
0.000520,0.024521,-0.139035
0.000521,0.023895,-0.149164
0.000521,0.023583,-0.159449
0.000521,0.023895,-0.169796
0.000522,0.025458,-0.181019
0.000522,0.026708,-0.193274
0.000522,0.028584,-0.205341
0.000523,0.029834,-0.217158
0.000523,0.030772,-0.228474
0.000523,0.032334,-0.238853
0.000524,0.033272,-0.248075
0.000524,0.034835,-0.257204
0.000524,0.037335,-0.267301
0.000525,0.038585,-0.275429
0.000525,0.038273,-0.280962
0.000525,0.037022,-0.284120
0.000526,0.033897,-0.285464
0.000526,0.032022,-0.285089
0.000526,0.030459,-0.282775
0.000527,0.029834,-0.279024
0.000527,0.030772,-0.273053
0.000527,0.030772,-0.265238
0.000528,0.030772,-0.255234
0.000528,0.030459,-0.242073
0.000528,0.029834,-0.226536
0.000529,0.029209,-0.209624
0.000529,0.029209,-0.190429
0.000529,0.029521,-0.169640
0.000530,0.027959,-0.147663
0.000530,0.025458,-0.124123
0.000530,0.022645,-0.099020
0.000531,0.019832,-0.072292
0.000531,0.018270,-0.044094
0.000531,0.017645,-0.013583
0.000532,0.015457,0.018023
0.000532,0.013269,0.048440
0.000532,0.009518,0.075325
0.000533,0.006393,0.098771
0.000533,0.004518,0.117872
0.000533,0.003580,0.133909
0.000534,0.004205,0.146726
0.000534,0.004830,0.156042
0.000534,0.003580,0.159700
0.000535,0.001705,0.159606
0.000535,-0.001421,0.156980
0.000535,-0.005796,0.152041
0.000536,-0.009234,0.143975
0.000536,-0.011735,0.132033
0.000536,-0.012985,0.116027
0.000537,-0.013298,0.096645
0.000537,-0.013610,0.075044
0.000537,-0.013298,0.051629
0.000538,-0.014235,0.026432
0.000538,-0.014860,-0.001954
0.000538,-0.014860,-0.034591
0.000539,-0.014235,-0.069385
0.000539,-0.013610,-0.103616
0.000539,-0.012672,-0.132064
0.000540,-0.012672,-0.144631
0.000540,-0.011110,-0.138723
0.000540,-0.009860,-0.122498
0.000541,-0.008922,-0.104397
0.000541,-0.008922,-0.088485
0.000541,-0.012047,-0.074918
0.000542,-0.015173,-0.061882
0.000542,-0.016423,-0.049190
0.000542,-0.017048,-0.036779
0.000543,-0.015173,-0.023837
0.000543,-0.012985,-0.006830
0.000543,-0.011422,0.018241
0.000544,-0.009234,0.049096
0.000544,-0.008297,0.079139
0.000544,-0.006734,0.103429
0.000544,-0.005171,0.120779
0.000545,-0.002983,0.129845
0.000545,-0.001421,0.132096
0.000545,-0.002358,0.129470
0.000546,-0.004234,0.123218
0.000546,-0.005796,0.113401
0.000546,-0.007984,0.099990
0.000547,-0.007359,0.081265
0.000547,-0.006422,0.055943
0.000547,-0.007047,0.025807
0.000548,-0.007359,-0.005893
0.000548,-0.008609,-0.035685
0.000548,-0.009547,-0.061913
0.000549,-0.009860,-0.086141
0.000549,-0.010485,-0.106711
0.000549,-0.008922,-0.121029
0.000550,-0.007047,-0.127187
0.000550,-0.006422,-0.120935
0.000550,-0.004859,-0.105554
0.000551,-0.004546,-0.089236
0.000551,-0.005484,-0.075512
0.000551,-0.005484,-0.064508
0.000552,-0.005484,-0.054786
0.000552,-0.004234,-0.044844
0.000552,-0.002358,-0.032684
0.000553,-0.001108,-0.016053
0.000553,-0.000171,0.006237
0.000553,0.000455,0.038030
0.000554,-0.000171,0.075669
0.000554,0.000142,0.110494
0.000554,0.000142,0.134159
0.000555,-0.000171,0.142006
0.000555,-0.000796,0.136660
0.000555,-0.002671,0.122967
0.000556,-0.002671,0.107806
0.000556,-0.003609,0.092144
0.000556,-0.002983,0.076607
0.000557,-0.002046,0.062133
0.000557,-0.002046,0.049472
0.000557,-0.002358,0.036154
0.000558,-0.002983,0.019742
0.000558,-0.002046,0.001110
0.000558,0.000767,-0.019241
0.000559,0.001392,-0.038467
0.000559,-0.000171,-0.057599
0.000559,-0.002983,-0.080826
0.000560,-0.007047,-0.109681
0.000560,-0.010172,-0.138910
0.000560,-0.011110,-0.147101
0.000561,-0.009860,-0.126343
0.000561,-0.008609,-0.089705
0.000561,-0.007984,-0.051315
0.000562,-0.006734,-0.019054
0.000562,-0.007047,0.005330
0.000562,-0.008297,0.022587
0.000563,-0.007047,0.035279
0.000563,-0.006109,0.046939
0.000563,-0.005171,0.061914
0.000564,-0.004234,0.079701
0.000564,-0.004546,0.097302
0.000564,-0.005484,0.111995
0.000565,-0.006734,0.120935
0.000565,-0.007672,0.122624
0.000565,-0.007672,0.116840
0.000566,-0.007359,0.106493
0.000566,-0.005796,0.094457
0.000566,-0.004546,0.081233
0.000567,-0.003296,0.066103
0.000567,-0.002046,0.048252
0.000567,-0.000483,0.024963
0.000568,0.001392,-0.004079
0.000568,0.004518,-0.036498
0.000568,0.006080,-0.071948
0.000569,0.005455,-0.108774
0.000569,0.002330,-0.143443
0.000569,-0.002046,-0.163513
0.000570,-0.004859,-0.149445
0.000570,-0.007984,-0.108555
0.000570,-0.008609,-0.059881
0.000571,-0.007359,-0.016115
0.000571,-0.007047,0.013458
0.000571,-0.006109,0.025807
0.000572,-0.005796,0.025494
0.000572,-0.006109,0.022524
0.000572,-0.006109,0.023962
0.000573,-0.007047,0.035810
0.000573,-0.007984,0.060132
0.000573,-0.008297,0.092519
0.000574,-0.008922,0.121123
0.000574,-0.008297,0.137660
0.000574,-0.006422,0.139161
0.000575,-0.004546,0.127500
0.000575,-0.002983,0.107243
0.000575,-0.002983,0.083359
0.000576,-0.004234,0.058350
0.000576,-0.004234,0.034279
0.000576,-0.003609,0.012177
0.000577,-0.001421,-0.010269
0.000577,-0.000171,-0.036466
0.000577,0.001392,-0.067259
0.000577,0.002955,-0.100896
0.000578,0.004205,-0.131376
0.000578,0.004205,-0.149414
0.000578,0.005455,-0.138629
0.000579,0.005768,-0.101553
0.000579,0.006393,-0.054192
0.000579,0.005768,-0.011707
0.000580,0.003580,0.016053
0.000580,0.002017,0.028401
0.000580,-0.000796,0.030027
0.000581,-0.002671,0.027338
0.000581,-0.004546,0.030371
0.000581,-0.006109,0.047033
0.000582,-0.005796,0.073293
0.000582,-0.004546,0.099052
0.000582,-0.002046,0.115871
0.000583,0.000142,0.121748
0.000583,0.001392,0.115496
0.000583,0.002642,0.099584
0.000584,0.002955,0.079608
0.000584,0.003267,0.061726
0.000584,0.005455,0.046689
0.000585,0.006393,0.032278
0.000585,0.006080,0.016491
0.000585,0.005143,-7.789623E-5
0.000586,0.002642,-0.016053
0.000586,0.000767,-0.032308
0.000586,-0.000483,-0.048971
0.000587,-0.000483,-0.065133
0.000587,0.001080,-0.076981
0.000587,0.002642,-0.076825
0.000588,0.004205,-0.059225
0.000588,0.006080,-0.034559
0.000588,0.006705,-0.016428
0.000589,0.007331,-0.011582
0.000589,0.007331,-0.015709
0.000589,0.006393,-0.019929
0.000590,0.006393,-0.016178
0.000590,0.005143,-0.003360
0.000590,0.003580,0.013083
0.000591,0.002955,0.025869
0.000591,0.003893,0.032403
0.000591,0.004830,0.033716
0.000592,0.006080,0.033028
0.000592,0.006080,0.035279
0.000592,0.005768,0.043782
0.000593,0.004518,0.052254
0.000593,0.003580,0.052879
0.000593,0.003893,0.046220
0.000594,0.004205,0.037280
0.000594,0.003893,0.029089
0.000594,0.003580,0.024994
0.000595,0.002642,0.026619
0.000595,0.002330,0.033716
0.000595,0.001080,0.046377
0.000596,-0.000171,0.060913
0.000596,-0.000796,0.072074
0.000596,-0.001421,0.070917
0.000597,-0.000171,0.051629
0.000597,0.001705,0.016178
0.000597,0.002642,-0.029933
0.000598,0.004205,-0.076262
0.000598,0.003580,-0.102709
0.000598,0.004205,-0.102803
0.000599,0.006080,-0.089705
0.000599,0.006393,-0.075137
0.000599,0.007331,-0.059569
0.000600,0.005768,-0.038686
0.000600,0.003267,-0.010582
0.000600,0.000455,0.020086
0.000601,-0.002671,0.042188
0.000601,-0.005171,0.051160
0.000601,-0.005796,0.055036
0.000602,-0.006734,0.057412
0.000602,-0.006109,0.056662
0.000602,-0.005796,0.052660
0.000603,-0.006109,0.051754
0.000603,-0.005796,0.058819
0.000603,-0.006422,0.069291
0.000604,-0.005796,0.074543
0.000604,-0.005796,0.066447
0.000604,-0.007359,0.043344
0.000605,-0.007672,0.013052
0.000605,-0.008609,-0.013989
0.000605,-0.007984,-0.036310
0.000606,-0.007672,-0.056911
0.000606,-0.008609,-0.077888
0.000606,-0.008609,-0.094144
0.000607,-0.008609,-0.100896
0.000607,-0.009234,-0.094769
0.000607,-0.008609,-0.078607
0.000608,-0.009234,-0.056286
0.000608,-0.009234,-0.028838
0.000608,-0.008609,-0.000641
0.000609,-0.009234,0.021743
0.000609,-0.009234,0.033841
0.000609,-0.007984,0.039718
0.000610,-0.006422,0.046314
0.000610,-0.004546,0.054755
0.000610,-0.004859,0.059538
0.000610,-0.006734,0.055443
0.000611,-0.008922,0.042250
0.000611,-0.012047,0.028339
0.000611,-0.013610,0.021117
0.000612,-0.014548,0.022024
0.000612,-0.012985,0.027714
0.000612,-0.009860,0.035591
0.000613,-0.007047,0.033434
0.000613,-0.005796,0.012614
0.000613,-0.004859,-0.011989
0.000614,-0.004546,-0.017741
0.000614,-0.003921,-0.004017
0.000614,-0.003609,0.015959
0.000615,-0.002983,0.028808
0.000615,-0.001733,0.030465
0.000615,-0.000483,0.024431
0.000616,0.000767,0.016960
0.000616,0.002955,0.009301
0.000616,0.004205,-0.004048
0.000617,0.004518,-0.027494
0.000617,0.004830,-0.047627
0.000617,0.005455,-0.047439
0.000618,0.006705,-0.028026
0.000618,0.007331,-0.003579
0.000618,0.009831,0.010989
0.000619,0.011081,0.010332
0.000619,0.010456,7.841127E-5
0.000619,0.010456,-0.010363
0.000620,0.010456,-0.018303
0.000620,0.011081,-0.034528
0.000620,0.012019,-0.066852
0.000621,0.011706,-0.095019
0.000621,0.012956,-0.098239
0.000621,0.014207,-0.074637
0.000622,0.015769,-0.040687
0.000622,0.017332,-0.013333
0.000622,0.018582,0.005549
0.000623,0.019207,0.025838
0.000623,0.019520,0.049690
0.000623,0.019207,0.067791
0.000624,0.019520,0.067166
0.000624,0.019832,0.045626
0.000624,0.019207,0.014834
0.000625,0.018582,-0.009550
0.000625,0.017019,-0.016146
0.000625,0.015457,-0.006549
0.000626,0.014832,0.010176
0.000626,0.013894,0.018867
0.000626,0.013894,0.014209
0.000627,0.013894,0.002923
0.000627,0.013581,-0.004392
0.000627,0.013894,-0.007737
0.000628,0.012644,-0.013458
0.000628,0.011706,-0.025431
0.000628,0.010456,-0.036998
0.000629,0.009831,-0.039968
0.000629,0.009206,-0.035341
0.000629,0.008893,-0.023555
0.000630,0.009518,-0.003485
0.000630,0.009518,0.022931
0.000630,0.006705,0.049847
0.000631,0.003580,0.070135
0.000631,0.002642,0.076950
0.000631,0.002330,0.070792
0.000632,0.002955,0.057131
0.000632,0.003580,0.037342
0.000632,0.002955,0.017772
0.000633,0.003267,0.007050
0.000633,0.003580,-0.000922
0.000633,0.003893,-0.012582
0.000634,0.004205,-0.024806
0.000634,0.003267,-0.030745
0.000634,0.002642,-0.027932
0.000635,0.001705,-0.014771
0.000635,0.001705,0.002361
0.000635,0.002642,0.016459
0.000636,0.003267,0.021836
0.000636,0.004518,0.011927
0.000636,0.005455,-0.011051
0.000637,0.005143,-0.040249
0.000637,0.006705,-0.069603
0.000637,0.007331,-0.089955
0.000638,0.008268,-0.090674
0.000638,0.009831,-0.068478
0.000638,0.010769,-0.033153
0.000639,0.011706,0.006174
0.000639,0.011394,0.044470
0.000639,0.010143,0.074481
0.000640,0.009518,0.092456
0.000640,0.009206,0.092706
0.000640,0.009518,0.070354
0.000641,0.011081,0.034591
0.000641,0.011706,-0.005705
0.000641,0.012644,-0.050002
0.000642,0.012331,-0.088986
0.000642,0.012019,-0.110306
0.000642,0.012019,-0.106617
0.000643,0.010456,-0.075918
0.000643,0.009831,-0.031308
0.000643,0.009206,0.006143
0.000643,0.008581,0.028308
0.000644,0.007956,0.040218
0.000644,0.007331,0.045720
0.000644,0.005768,0.048221
0.000645,0.005143,0.047346
0.000645,0.004205,0.031653
0.000645,0.003267,0.001767
0.000646,0.004205,-0.020242
0.000646,0.004830,-0.023805
0.000646,0.005455,-0.012145
0.000647,0.006080,0.012052
0.000647,0.006080,0.044188
0.000647,0.006393,0.071636
0.000648,0.006080,0.082140
0.000648,0.006080,0.069104
0.000648,0.007018,0.034091
0.000649,0.007331,-0.014208
0.000649,0.008581,-0.068884
0.000649,0.009206,-0.117777
0.000650,0.011081,-0.145819
0.000650,0.012644,-0.148414
0.000650,0.013269,-0.122623
0.000651,0.014207,-0.072354
0.000651,0.015144,-0.017022
0.000651,0.015457,0.026870
0.000652,0.016707,0.054536
0.000652,0.017019,0.066728
0.000652,0.017645,0.061445
0.000653,0.017332,0.037311
0.000653,0.016082,0.000922
0.000653,0.016082,-0.028901
0.000654,0.016707,-0.038092
0.000654,0.016394,-0.029182
0.000654,0.015457,-0.011863
0.000655,0.012956,0.004080
0.000655,0.011394,0.017616
0.000655,0.011394,0.029464
0.000656,0.012331,0.030683
0.000656,0.013581,0.018210
0.000656,0.015144,-0.000297
0.000657,0.015144,-0.016334
0.000657,0.014207,-0.029307
0.000657,0.011706,-0.044626
0.000658,0.009831,-0.064727
0.000658,0.008893,-0.082202
0.000658,0.007331,-0.082577
0.000659,0.006705,-0.055755
0.000659,0.006393,-0.009363
0.000659,0.006393,0.035373
0.000660,0.007643,0.060163

